width,height,webaudio,browser,browser_version,mobile,os,fullscreen,vsync_rate,webcam,microphone,trial_type,time_elapsed,bonus,view_history,rt,load_time,stimulus,response,success,key_strokes,final_text,accuracy,question_order,wid
,,,,,,,,,,,instructions,47566,.25,"[{'page_index': 0, 'viewing_time': 3518}, {'page_index': 1, 'viewing_time': 1391}]",4909.0,,,,,,,,,w3715a84
,,,,,,,,,,,instructions,151284,.25,"[{'page_index': 0, 'viewing_time': 5974}]",5975.0,,,,,,,,,w3715a84
,,,,,,,,,,,instructions,307386,.25,"[{'page_index': 0, 'viewing_time': 3991}]",3991.0,,,,,,,,,w3715a84
,,,,,,,,,,,instructions,9211,.25,"[{'page_index': 0, 'viewing_time': 6496}, {'page_index': 1, 'viewing_time': 1216}]",7712.0,,,,,,,,,wd429ae0
,,,,,,,,,,,instructions,129514,.25,"[{'page_index': 0, 'viewing_time': 17590}]",17590.0,,,,,,,,,wd429ae0
,,,,,,,,,,,instructions,375456,.25,"[{'page_index': 0, 'viewing_time': 10387}]",10388.0,,,,,,,,,wd429ae0
,,,,,,,,,,,instructions,3958,.50,"[{'page_index': 0, 'viewing_time': 2936}]",2936.0,,,,,,,,,w873e593
,,,,,,,,,,,instructions,9994,.50,"[{'page_index': 0, 'viewing_time': 2543}]",2543.0,,,,,,,,,w873e593
,,,,,,,,,,,instructions,148499,.50,"[{'page_index': 0, 'viewing_time': 5159}]",5159.0,,,,,,,,,w873e593
,,,,,,,,,,,instructions,332251,.50,"[{'page_index': 0, 'viewing_time': 3108}]",3108.0,,,,,,,,,w873e593
,,,,,,,,,,,instructions,23402,.50,"[{'page_index': 0, 'viewing_time': 22400}]",22401.0,,,,,,,,,w71c4994
,,,,,,,,,,,instructions,61749,.50,"[{'page_index': 0, 'viewing_time': 27775}]",27775.0,,,,,,,,,w71c4994
,,,,,,,,,,,instructions,276733,.50,"[{'page_index': 0, 'viewing_time': 12625}]",12626.0,,,,,,,,,w71c4994
,,,,,,,,,,,instructions,619001,.50,"[{'page_index': 0, 'viewing_time': 4898}]",4899.0,,,,,,,,,w71c4994
,,,,,,,,,,,instructions,6643,.50,"[{'page_index': 0, 'viewing_time': 5161}]",5162.0,,,,,,,,,wf3a3126
,,,,,,,,,,,instructions,9891,.50,"[{'page_index': 0, 'viewing_time': 1170}]",1170.0,,,,,,,,,wf3a3126
,,,,,,,,,,,instructions,153985,.50,"[{'page_index': 0, 'viewing_time': 1186}]",1187.0,,,,,,,,,wf3a3126
,,,,,,,,,,,instructions,311368,.50,"[{'page_index': 0, 'viewing_time': 9490}]",9490.0,,,,,,,,,wf3a3126
,,,,,,,,,,,instructions,23917,.25,"[{'page_index': 0, 'viewing_time': 22453}]",22454.0,,,,,,,,,w88f1b11
,,,,,,,,,,,instructions,37770,.25,"[{'page_index': 0, 'viewing_time': 4793}]",4793.0,,,,,,,,,w88f1b11
,,,,,,,,,,,instructions,260002,.25,"[{'page_index': 0, 'viewing_time': 28619}]",28619.0,,,,,,,,,w88f1b11
,,,,,,,,,,,instructions,515081,.25,"[{'page_index': 0, 'viewing_time': 5220}]",5221.0,,,,,,,,,w88f1b11
,,,,,,,,,,,instructions,3757,.50,"[{'page_index': 0, 'viewing_time': 2765}]",2765.0,,,,,,,,,wda754a5
,,,,,,,,,,,instructions,18836,.50,"[{'page_index': 0, 'viewing_time': 2279}]",2279.0,,,,,,,,,wda754a5
,,,,,,,,,,,instructions,127425,.50,"[{'page_index': 0, 'viewing_time': 2534}]",2534.0,,,,,,,,,wda754a5
,,,,,,,,,,,instructions,328197,.50,"[{'page_index': 0, 'viewing_time': 3240}]",3241.0,,,,,,,,,wda754a5
,,,,,,,,,,,instructions,6978,.25,"[{'page_index': 0, 'viewing_time': 5669}]",5669.0,,,,,,,,,w25aec1b
,,,,,,,,,,,instructions,16982,.25,"[{'page_index': 0, 'viewing_time': 3200}]",3200.0,,,,,,,,,w25aec1b
,,,,,,,,,,,instructions,215939,.25,"[{'page_index': 0, 'viewing_time': 11276}]",11277.0,,,,,,,,,w25aec1b
,,,,,,,,,,,instructions,456247,.25,"[{'page_index': 0, 'viewing_time': 4162}]",4163.0,,,,,,,,,w25aec1b
,,,,,,,,,,,instructions,4501,.25,"[{'page_index': 0, 'viewing_time': 3505}]",3505.0,,,,,,,,,w5dd4e7f
,,,,,,,,,,,instructions,10710,.25,"[{'page_index': 0, 'viewing_time': 2802}]",2802.0,,,,,,,,,w5dd4e7f
,,,,,,,,,,,instructions,104561,.25,"[{'page_index': 0, 'viewing_time': 1143}]",1143.0,,,,,,,,,w5dd4e7f
,,,,,,,,,,,instructions,260834,.25,"[{'page_index': 0, 'viewing_time': 1855}]",1855.0,,,,,,,,,w5dd4e7f
,,,,,,,,,,,instructions,30261,.50,"[{'page_index': 0, 'viewing_time': 29268}]",29268.0,,,,,,,,,w35b8034
,,,,,,,,,,,instructions,42500,.50,"[{'page_index': 0, 'viewing_time': 6741}]",6741.0,,,,,,,,,w35b8034
,,,,,,,,,,,instructions,151570,.50,"[{'page_index': 0, 'viewing_time': 3231}]",3232.0,,,,,,,,,w35b8034
,,,,,,,,,,,instructions,327708,.50,"[{'page_index': 0, 'viewing_time': 2148}]",2149.0,,,,,,,,,w35b8034
,,,,,,,,,,,instructions,2579,.25,"[{'page_index': 0, 'viewing_time': 1585}]",1585.0,,,,,,,,,w22e3f04
,,,,,,,,,,,instructions,10328,.25,"[{'page_index': 0, 'viewing_time': 3820}]",3820.0,,,,,,,,,w22e3f04
,,,,,,,,,,,instructions,132193,.25,"[{'page_index': 0, 'viewing_time': 1957}]",1958.0,,,,,,,,,w22e3f04
,,,,,,,,,,,instructions,308494,.25,"[{'page_index': 0, 'viewing_time': 5019}]",5020.0,,,,,,,,,w22e3f04
,,,,,,,,,,,instructions,2623,.50,"[{'page_index': 0, 'viewing_time': 1607}]",1608.0,,,,,,,,,wf3c0714
,,,,,,,,,,,instructions,7441,.50,"[{'page_index': 0, 'viewing_time': 1278}]",1278.0,,,,,,,,,wf3c0714
,,,,,,,,,,,instructions,383502,.50,"[{'page_index': 0, 'viewing_time': 9776}]",9778.0,,,,,,,,,wf3c0714
,,,,,,,,,,,instructions,734582,.50,"[{'page_index': 0, 'viewing_time': 3736}]",3737.0,,,,,,,,,wf3c0714
,,,,,,,,,,,instructions,4581,.50,"[{'page_index': 0, 'viewing_time': 1709}]",1710.0,,,,,,,,,we3379d6
,,,,,,,,,,,instructions,13080,.50,"[{'page_index': 0, 'viewing_time': 1996}]",1996.0,,,,,,,,,we3379d6
,,,,,,,,,,,instructions,304072,.50,"[{'page_index': 0, 'viewing_time': 8911}]",8913.0,,,,,,,,,we3379d6
,,,,,,,,,,,instructions,537801,.50,"[{'page_index': 0, 'viewing_time': 7313}]",7315.0,,,,,,,,,we3379d6
,,,,,,,,,,,instructions,9499,.25,"[{'page_index': 0, 'viewing_time': 8501}]",8503.0,,,,,,,,,w0597382
,,,,,,,,,,,instructions,30205,.25,"[{'page_index': 0, 'viewing_time': 16564}]",16564.0,,,,,,,,,w0597382
,,,,,,,,,,,instructions,362156,.25,"[{'page_index': 0, 'viewing_time': 19918}]",19920.0,,,,,,,,,w0597382
,,,,,,,,,,,instructions,703029,.25,"[{'page_index': 0, 'viewing_time': 7671}]",7673.0,,,,,,,,,w0597382
,,,,,,,,,,,instructions,10103,.50,"[{'page_index': 0, 'viewing_time': 9079}]",9080.0,,,,,,,,,wa5a8528
,,,,,,,,,,,instructions,17938,.50,"[{'page_index': 0, 'viewing_time': 2165}]",2165.0,,,,,,,,,wa5a8528
,,,,,,,,,,,instructions,138639,.50,"[{'page_index': 0, 'viewing_time': 1601}]",1601.0,,,,,,,,,wa5a8528
,,,,,,,,,,,instructions,315193,.50,"[{'page_index': 0, 'viewing_time': 2063}]",2064.0,,,,,,,,,wa5a8528
,,,,,,,,,,,instructions,3094,.50,"[{'page_index': 0, 'viewing_time': 2100}]",2100.0,,,,,,,,,wa57de13
,,,,,,,,,,,instructions,9100,.50,"[{'page_index': 0, 'viewing_time': 1489}]",1490.0,,,,,,,,,wa57de13
,,,,,,,,,,,instructions,289018,.50,"[{'page_index': 0, 'viewing_time': 5056}]",5058.0,,,,,,,,,wa57de13
,,,,,,,,,,,instructions,566452,.50,"[{'page_index': 0, 'viewing_time': 4877}]",4879.0,,,,,,,,,wa57de13
,,,,,,,,,,,instructions,2494,.25,"[{'page_index': 0, 'viewing_time': 1497}]",1498.0,,,,,,,,,we98a064
,,,,,,,,,,,instructions,11521,.25,"[{'page_index': 0, 'viewing_time': 2553}]",2557.0,,,,,,,,,we98a064
,,,,,,,,,,,instructions,132650,.25,"[{'page_index': 0, 'viewing_time': 1498}]",1500.0,,,,,,,,,we98a064
,,,,,,,,,,,instructions,365373,.25,"[{'page_index': 0, 'viewing_time': 27329}]",27331.0,,,,,,,,,we98a064
,,,,,,,,,,,instructions,4123,.25,"[{'page_index': 0, 'viewing_time': 2907}]",2909.0,,,,,,,,,wcb7d58b
,,,,,,,,,,,instructions,27065,.25,"[{'page_index': 0, 'viewing_time': 1607}]",1608.0,,,,,,,,,wcb7d58b
,,,,,,,,,,,instructions,192775,.25,"[{'page_index': 0, 'viewing_time': 2906}]",2908.0,,,,,,,,,wcb7d58b
,,,,,,,,,,,instructions,379117,.25,"[{'page_index': 0, 'viewing_time': 6168}]",6170.0,,,,,,,,,wcb7d58b
,,,,,,,,,,,instructions,4484,.50,"[{'page_index': 0, 'viewing_time': 3490}]",3490.0,,,,,,,,,w3ccd836
,,,,,,,,,,,instructions,12536,.50,"[{'page_index': 0, 'viewing_time': 1804}]",1804.0,,,,,,,,,w3ccd836
,,,,,,,,,,,instructions,190597,.50,"[{'page_index': 0, 'viewing_time': 7130}]",7131.0,,,,,,,,,w3ccd836
,,,,,,,,,,,instructions,396776,.50,"[{'page_index': 0, 'viewing_time': 14458}]",14460.0,,,,,,,,,w3ccd836
,,,,,,,,,,,instructions,11205,.50,"[{'page_index': 0, 'viewing_time': 10126}]",10126.0,,,,,,,,,w2c459ee
,,,,,,,,,,,instructions,19013,.50,"[{'page_index': 0, 'viewing_time': 1217}]",1217.0,,,,,,,,,w2c459ee
,,,,,,,,,,,instructions,160102,.50,"[{'page_index': 0, 'viewing_time': 1445}]",1446.0,,,,,,,,,w2c459ee
,,,,,,,,,,,instructions,334565,.50,"[{'page_index': 0, 'viewing_time': 1009}]",1010.0,,,,,,,,,w2c459ee
,,,,,,,,,,,instructions,6170,.50,"[{'page_index': 0, 'viewing_time': 5170}]",5171.0,,,,,,,,,waa2b5e3
,,,,,,,,,,,instructions,14006,.50,"[{'page_index': 0, 'viewing_time': 1277}]",1278.0,,,,,,,,,waa2b5e3
,,,,,,,,,,,instructions,142291,.50,"[{'page_index': 0, 'viewing_time': 1012}]",1012.0,,,,,,,,,waa2b5e3
,,,,,,,,,,,instructions,372360,.50,"[{'page_index': 0, 'viewing_time': 1342}]",1343.0,,,,,,,,,waa2b5e3
,,,,,,,,,,,instructions,2761,.50,"[{'page_index': 0, 'viewing_time': 1733}]",1733.0,,,,,,,,,wbd65b7f
,,,,,,,,,,,instructions,9457,.50,"[{'page_index': 0, 'viewing_time': 2072}]",2073.0,,,,,,,,,wbd65b7f
,,,,,,,,,,,instructions,108164,.50,"[{'page_index': 0, 'viewing_time': 1627}]",1628.0,,,,,,,,,wbd65b7f
,,,,,,,,,,,instructions,298652,.50,"[{'page_index': 0, 'viewing_time': 16809}]",16812.0,,,,,,,,,wbd65b7f
,,,,,,,,,,,instructions,2608,.50,"[{'page_index': 0, 'viewing_time': 1604}]",1606.0,,,,,,,,,wac47b86
,,,,,,,,,,,instructions,8256,.50,"[{'page_index': 0, 'viewing_time': 1347}]",1347.0,,,,,,,,,wac47b86
,,,,,,,,,,,instructions,143285,.50,"[{'page_index': 0, 'viewing_time': 11616}]",11619.0,,,,,,,,,wac47b86
,,,,,,,,,,,instructions,278489,.50,"[{'page_index': 0, 'viewing_time': 3076}]",3077.0,,,,,,,,,wac47b86
,,,,,,,,,,,instructions,3383,.25,"[{'page_index': 0, 'viewing_time': 2358}]",2358.0,,,,,,,,,w0c50539
,,,,,,,,,,,instructions,10491,.25,"[{'page_index': 0, 'viewing_time': 1866}]",1866.0,,,,,,,,,w0c50539
,,,,,,,,,,,instructions,155680,.25,"[{'page_index': 0, 'viewing_time': 1556}]",1557.0,,,,,,,,,w0c50539
,,,,,,,,,,,instructions,346831,.25,"[{'page_index': 0, 'viewing_time': 1857}]",1858.0,,,,,,,,,w0c50539
,,,,,,,,,,,instructions,2644,.25,"[{'page_index': 0, 'viewing_time': 1648}]",1649.0,,,,,,,,,wcdfdd8e
,,,,,,,,,,,instructions,8473,.25,"[{'page_index': 0, 'viewing_time': 1491}]",1491.0,,,,,,,,,wcdfdd8e
,,,,,,,,,,,instructions,265287,.25,"[{'page_index': 0, 'viewing_time': 2344}]",2345.0,,,,,,,,,wcdfdd8e
,,,,,,,,,,,instructions,512808,.25,"[{'page_index': 0, 'viewing_time': 4589}]",4592.0,,,,,,,,,wcdfdd8e
